accel_x,accel_y,accel_z,gyro_x,gyro_y,gyro_z
-0.241448501806865,1.07439832707063,0.305112183562921,3.38610765576628,1.53745458949829,0.07600801110528
-0.254080209009338,1.12950162544004,0.34040183894413,3.38804933081629,1.53737971717947,0.0740308740912115
-0.249618982055539,1.15569356565565,0.446272279498443,3.39213341871196,1.52722900120486,0.0799922970345842
-0.220706395947052,1.1070423877853,0.56102105228398,3.38657559932957,1.51540334990149,0.0820651432377691
-0.198529959685167,1.06753907542265,0.657350164173188,3.37280319929752,1.50265599916439,0.0801593986978897
-0.18258193651182,1.03724013217,0.734536371718149,3.35225811774816,1.48964139551261,0.0742947101033195
-0.172213404125142,1.01592893256149,0.792365535843124,3.32635728544525,1.47690276215238,0.0645955783070503
-0.166671764570437,1.00314354849429,0.831103554364338,3.29645748901102,1.46486521653706,0.0512839153203931
-0.165137332684032,0.998209466309188,0.851456026227066,3.26382509477197,1.45383400568162,0.0346693964156892
-0.166757901835288,1.00027567305152,0.854518909669201,3.2296109718252,1.44399724428245,0.015138014310224
-0.170680444351218,1.00835272509389,0.841722412919567,3.19483071970564,1.43543241788125,-0.00686078480927837
-0.176079324035221,1.02135156464234,0.814770258610518,3.16035015354028,1.42811584686225,-0.030828024719533
-0.182180581373765,1.0381220019063,0.775576317148285,3.12687588549747,1.42193429260902,-0.0562298336285628
-0.188282005151451,1.05748992156112,0.72620043109901,3.09495075930862,1.4166979184915,-0.0825124401801525
-0.193768835598129,1.07829239629408,0.668785069638234,3.06495383652861,1.41215388791001,-0.109117171877471
-0.198125061765662,1.09940999783177,0.605494271206234,3.03710459041081,1.40799998065182,-0.13549508385678
-0.200940385482719,1.11979569108289,0.538456160505123,3.01147092789952,1.40389772777338,-0.161120836135623
-0.201913029494518,1.1384997863703,0.469710165162888,2.98798062602851,1.39948469422885,-0.185505437416143
-0.200848669357087,1.1546905154965,0.401159905766178,2.96643573197868,1.39438566789745,-0.208207488974811
-0.197655865911361,1.16766989614263,0.334532585745345,2.94652943482549,1.3882226347082,-0.228842597118879
-0.192338464255537,1.17688466047585,0.271345557948165,2.92786487285259,1.38062352477356,-0.247090678841811
-0.184985501066172,1.18193214993295,0.212880585639983,2.90997529677419,1.37122979814138,-0.262700961805586
-0.175759219456264,1.18256121788529,0.160166141257883,2.89234497148461,1.35970299735056,-0.275494573244488
-0.164881824132207,1.17866833114218,0.113967892912067,2.87443017300652,1.34573042609917,-0.285364717267629
-0.152621615399369,1.1702892133526,0.0747873165061282,2.85567962900247,1.32903011994233,-0.292274549142821
-0.139279116289667,1.15758651998284,0.042868145226831,2.83555376548704,1.3093552590708,-0.296252960362954
-0.125173752868313,1.14083416662784,0.0182101361560631,2.81354216254841,1.28649813964833,-0.297388581433168
-0.110631566510321,1.12039904094624,0.000589406878797354,2.78917868911902,1.2602937749,-0.295822382943074
-0.0959743339892011,1.09672090564613,-0.0104156133373455,2.76205387985698,1.23062314669274,-0.291739303701329
-0.0815103540431914,1.070291340032,-0.0153937497151831,2.73182423235893,1.19741607915799,-0.285359353787612
-0.0675270365385664,1.0416325678267,-0.0150674300248177,2.69821823451264,1.16065366368202,-0.276928629252629
-0.0542853119098662,1.01127697961277,-0.0102571577541064,2.66103907263514,1.12037013384023,-0.266710635627291
-0.0420157730443129,0.979748082480376,-0.00184547270182903,2.62016411317682,1.07665407254283,-0.254978253771922
-0.0309163766380687,0.947543502856254,0.00925828065302149,2.5755413862098,1.02964883297324,-0.242006600378307
-0.0211514711797225,0.915120538571397,0.0221511566628337,2.52718342031403,0.979552069235309,-0.228066944464924
-0.0128518861417667,0.882884611893582,0.0359667144546257,2.47515887967497,0.926614299791561,-0.213421748832668
-0.00611581108729849,0.851180825800066,0.0499011485588858,2.41958253064663,0.871136463340429,-0.19832081965862
-0.00101021066372973,0.820288680160609,0.0632347865040575,2.36060411392278,0.813466468532424,-0.182998475008169
0.00242744330786075,0.790419870476099,0.0753485303095697,2.29839671878595,0.753994781400572,-0.167671589049179
0.00418729441682213,0.761718975548978,0.0857350548804524,2.23314524831122,0.693149133395775,-0.15253833599162
0.00428519858673758,0.73426674622005,0.0940048016353991,2.16503553093425,0.631388465056185,-0.137777446822239
0.00276086370799726,0.708085637081176,0.0998870097738803,2.09424457761687,0.569196243270658,-0.123547801195248
-0.000323945072828041,0.683147177080545,0.10322620233306,2.02093240892045,0.507073302773797,-0.109988203037752
-0.00488714752702126,0.659380751803358,0.103974684247006,1.94523578709798,0.445530365163033,-0.0972172269005131
-0.0108280759660232,0.636683367217993,0.102181712199643,1.86726408954576,0.385080382720349,-0.0853330674703557
-0.01802923953793,0.614929978165679,0.0979800603878631,1.78709745633022,0.32623084192389,-0.0744133714611673
-0.0263581790825006,0.593983990878238,0.0915707340150231,1.70478724057128,0.269476145582026,-0.0645150742231883
-0.0356694600845113,0.573707583663281,0.0832065767004814,1.62035869039527,0.215290176016252,-0.0556742986493146
-0.0458068379780777,0.553971530402483,0.0731754834525944,1.53381569863105,0.164119127414029,-0.0479063983353948
-0.0566056121315935,0.534664254824091,0.061783872656983,1.44514737448649,0.11637468551055,-0.041206238845753
-0.0678951645323686,0.51569988715999,0.0493409941918454,1.35433612255925,0.072427628397066,-0.0355488100095982
-0.0795016585147529,0.497025137020701,0.0361445621424191,1.26136686054759,0.0326019237200597,-0.0308902492171054
-0.0912508534679031,0.478624836213962,0.0224681052478455,1.16623696914001,-0.00283059596805319,-0.0271693324350796
-0.102970974581869,0.460526042660452,0.00855033120943485,1.06896654636072,-0.0336548881205114,-0.0243094586100652
-0.114495563215606,0.442800631844863,-0.0054132933588878,0.969608534093321,-0.0597165829970752,-0.0222211172773824
-0.125666224107544,0.425566335837512,-0.0192766339963036,0.868258295965136,-0.080924982974661,-0.0208047918139588
-0.136335181251823,0.408986222019918,-0.0329466176013948,0.765062252051062,-0.0972550625401112,-0.0199542151344692
-0.146367555411679,0.393266634387079,-0.0463846383138327,0.66022521523917,-0.108748355693127,-0.0195598638033234
-0.155643283568842,0.378653649650858,-0.0596057408530815,0.554016124442953,-0.115512628850742,-0.019512553177944
-0.164058614602913,0.365428128370091,-0.0726757353364428,0.446771928664343,-0.117720258400352,-0.019706982409123
-0.171527136005855,0.353899468082495,-0.0857064425663407,0.338899440496017,-0.115605262626587,-0.0200450752975298
-0.177980312982862,0.344398190888666,-0.0988493065794656,0.230875045219146,-0.109458976604548,-0.02043897172619
-0.183367552315941,0.337267522517841,-0.112287642446557,0.123242219521527,-0.099624403660948,-0.0208135443366213
-0.187655836602634,0.332854143865441,-0.126227812590035,0.0166068795940119,-0.0864893253192522,-0.0211083450344818
-0.190829006948242,0.331498319352682,-0.140889644749072,-0.0883693601122229,-0.070478300043116,-0.0212789236354287
-0.192886799942096,0.333523629234018,-0.15649641896385,-0.190977880474105,-0.0520437263250376,-0.0212975035223928
-0.193843763896146,0.339226555048539,-0.173264759128364,-0.290473517775289,-0.0316561847909589,-0.0211530429997126
-0.193728186131369,0.348866188324766,-0.19139476581119,-0.386086562826802,-0.00979430472266398,-0.0208507521253833
-0.192581154657662,0.36265435146111,-0.211060720010687,-0.477036037159818,0.0130655787089136,-0.0204111691622208
-0.19045585272241,0.380746434861986,-0.232402671087385,-0.562543956179539,0.0364596996788162,-0.0198689247391988
-0.187417144004749,0.40323326350582,-0.2555191952797,-0.641850266417354,0.059946792011094,-0.0192713324176071
-0.183541452509903,0.430134306218656,-0.280461573626325,-0.714228125599159,0.0831174053406288,-0.0186769398200333
-0.178916879738592,0.461392528881791,-0.307229589717555,-0.778999179350857,0.10560235320712,-0.0181541544694835
-0.17364343945539,0.496871165504954,-0.335769089287159,-0.835548476671193,0.127080059717174,-0.0177800243466266
-0.167833235684367,0.536352636315425,-0.365971376569232,-0.883338658200239,0.147282595669009,-0.0176392079683749
-0.161610371242132,0.57953977869678,-0.397674448519406,-0.921923047944466,0.166000221941097,-0.0178231171304255
-0.155110360002532,0.62605947548468,-0.430665990484061,-0.950957282360305,0.183084287285614,-0.0184291631629774
-0.148478831703431,0.675468668489374,-0.464687979450253,-0.970209123011639,0.198448360166954,-0.0195599911324249
-0.141869365324807,0.727262638032496,-0.499442668240806,-0.979566123129462,0.212067511346447,-0.0213225523556539
-0.135440363237282,0.78088531869487,-0.534599661160367,-0.979040856798484,0.22397570698444,-0.0238268494539735
-0.129350976605742,0.835741315797166,-0.569803743664144,-0.968773473879539,0.234261322032596,-0.027184193816822
-0.123756203107416,0.891209195225008,-0.604683099664284,-0.949031414691345,0.243060840813992,-0.0315048443136332
-0.118801388674948,0.946655549134378,-0.638857543251412,-0.92020620503385,0.25055087534713,-0.0368949472872893
-0.114616462614906,1.00144929819215,-0.671946408501974,-0.882807351864051,0.256938700604199,-0.0434527674792046
-0.111310307633325,1.05497568133854,-0.703575781154303,-0.837453468723886,0.262451576784814,-0.0512642812969424
-0.108965702856772,1.10664940760407,-0.73338481701498,-0.784860872255787,0.267325197962552,-0.0603982895629927
-0.107635272509332,1.15592649930947,-0.761030969906734,-0.725830000047842,0.271791669245078,-0.0709012873733431
-0.107338823746528,1.20231443736907,-0.786194040739956,-0.66123009816595,0.276067465278737,-0.0827923947818813
-0.108062367935482,1.24538032047823,-0.808579051764018,-0.591982706572997,0.280341855793959,-0.0960586956912602
-0.109758998951325,1.28475686244629,-0.82791803844187,-0.519044525499737,0.284766293990399,-0.110651347705298
-0.112351661801281,1.32014616698742,-0.843970928208856,-0.443390270542915,0.289445247603516,-0.12648280981946
-0.1157376988611,1.35132132860193,-0.856525734386197,-0.365996115746184,0.294428909219263,-0.143425487983605
-0.119794922988361,1.37812600465313,-0.865398330140146,-0.28782428159434,0.299708152718319,-0.161312024248546
-0.124388849105723,1.40047218185181,-0.870432079537905,-0.209809250841775,0.305212009733904,-0.179937359621782
-0.129380628325812,1.41833641690372,-0.871497589944953,-0.132845994118926,0.310807828823767,-0.199062592077053
-0.134635177658142,1.43175486486044,-0.868492813633036,-0.0577804662291891,0.316304157413833,-0.218420538551832
-0.140028986696632,1.44081742035892,-0.86134367007323,0.0145974985911961,0.321456260103896,-0.237722802376465
-0.145457109621009,1.44566128881833,-0.850005289062314,0.0835588992023628,0.325974064459874,-0.256668053623434
-0.150838912392752,1.44646428032005,-0.834463894917606,0.148438022792501,0.329532214362419,-0.274951155936252
-0.15612223490301,1.44343808256892,-0.814739270414528,0.208632890489334,0.331781817750828,-0.292272724002349
-0.161285737962006,1.43682172557677,-0.790887662651541,0.263604031284164,0.332363405138304,-0.308348673216086
-0.166339326807338,1.42687540379339,-0.763004927290611,0.312871984854852,0.33092057070083,-0.322919327272017
-0.17132266737094,1.41387477508283,-0.731229657558939,0.356013966238819,0.327113750216279,-0.335757678513484
-0.176301930359746,1.39810581341602,-0.695746013334877,0.392660127194963,0.320633598948419,-0.346676446372755
-0.181365003713201,1.37986025575236,-0.656785955181897,0.422489822647396,0.311213465401661,-0.35553364664688
-0.186615499849976,1.35943165452077,-0.614630598729969,0.445228239940253,0.298640510127453,-0.362236463549532
-0.192165945510566,1.33711202570867,-0.569610435076127,0.460643679322032,0.282765088020474,-0.366743302215363
-0.198130575991616,1.31318906816422,-0.522104210306095,0.468545692554094,0.263508092980317,-0.369063986568097
-0.204618161220027,1.28794392089854,-0.472536318482395,0.468784199476513,0.24086605063664,-0.369258151631837
-0.21172526917435,1.26164942018427,-0.421372633484915,0.461249616098547,0.214913833611768,-0.367431956554341
-0.219530325719773,1.23456881504147,-0.369114781423975,0.445873947781059,0.185804960775387,-0.363733311672818
-0.228088763524682,1.20695489634133,-0.316292932558167,0.422632731564151,0.153769524313853,-0.358345867556309
-0.237429471996664,1.17904948974408,-0.263457265542799,0.391547655469136,0.119109864299091,-0.3514820545734
-0.247552671562204,1.15108325524015,-0.211168323555195,0.352689641152795,0.0821941784653953,-0.343375487343867
-0.258429245370232,1.12327572610039,-0.159986538323188,0.306182149982434,0.0434483138766425,-0.334273059225174
-0.270001475743459,1.09583550840695,-0.11046124196048,0.252204460856732,0.00334603589450552,-0.324427048098851
-0.282185056487974,1.06896055073584,-0.063119515940757,0.190994669574346,-0.0376018928061314,-0.314087537028377
-0.294872189437758,1.04283838426452,-0.0184552403617302,0.122852172427584,-0.0788594656384147,-0.303495423206537
-0.307935527163471,1.01764622896586,0.0230812952217668,0.0481394189174591,-0.119877649201961,-0.292876247769711
-0.321232695474006,0.993550863901308,0.0610928753585585,-0.0327172521409498,-0.160106698330633,-0.282435029698222
-0.334611120086436,0.970708170814736,0.0952436243025663,-0.119227844567844,-0.199008220107826,-0.27235223166525
-0.347912890970927,0.94926228112674,0.12526578542657,-0.210840119187654,-0.236066667106303,-0.262780927128358
-0.360979423277096,0.929344287029082,0.150964800528062,-0.306942266894575,-0.270799979727693,-0.253845179097498
-0.373655712431493,0.911070516444498,0.172222536771152,-0.406866878948431,-0.302769144837057,-0.245639584787064
-0.385794029132482,0.894540416708236,0.18899857500894,-0.509896216526128,-0.331586489835568,-0.238229889550266
-0.397256953275758,0.87983413936624,0.201329540517615,-0.615268746770515,-0.356922584638146,-0.231654530600392
-0.407919700236865,0.867009964154943,0.209326522878019,-0.722186879695964,-0.378511675571385,-0.225926938110415
-0.41767174438475,0.856101739445744,0.21317069328822,-0.829825809306209,-0.396155622197111,-0.2210383998438
-0.426417789765323,0.847116544565042,0.213107282719618,-0.937343333081726,-0.409726348302224,-0.216961286321491
-0.434078174072437,0.840032792546903,0.209438131359023,-1.04389049660801,-0.419166850343239,-0.213652436732213
-0.440588817350382,0.834798987406769,0.202513057557201,-1.14862288472359,-0.424490829919237,-0.211056520623514
-0.445900840441027,0.831333326779971,0.192720322302116,-1.25071235757658,-0.425781031659458,-0.209109215405506
-0.449979980012755,0.829524299343967,0.180476482643296,-1.34935901001474,-0.423186375370809,-0.207740072729841
-0.452805917613202,0.829232369566502,0.166215934840915,-1.44380311655568,-0.41691797323461,-0.206874985220426
-0.454371621145031,0.830292774224659,0.150380445517875,-1.5333368125741,-0.407244121706254,-0.20643820582243
-0.45468277072622,0.832519381057963,0.13340895709703,-1.61731525600197,-0.394484356343682,-0.206353912056743
-0.453757309801045,0.835709486035138,0.115727933324375,-1.69516701336507,-0.379002658755177,-0.20654734372097
-0.451625130220524,0.839649357963534,0.0977424826247955,-1.76640341990726,-0.361199910241036,-0.206945572526108
-0.448327870204789,0.844120283049902,0.079828462519044,-1.83062667635929,-0.34150569750044,-0.207477983965374
-0.443918779193674,0.848904822558052,0.062325728987746,-1.88753646492489,-0.320369591883141,-0.208076564373956
-0.438462585482765,0.853792977449102,0.0455326521219142,-1.93693489432643,-0.29825204409524,-0.208676089487972
-0.432035291862744,0.858587956819831,0.0297019754784736,-1.97872961788429,-0.275615059426059,-0.209214305427933
-0.424723821384043,0.863111271979152,0.0150380532294258,-2.01293500879065,-0.252912842392409,-0.209632180129625
-0.416625439708456,0.86720692267195,0.00169545799780819,-2.03967132189607,-0.230582621702291,-0.20987428453256
-0.407846891721894,0.870744502009961,-0.0102210854973701,-2.05916182023607,-0.209035883793443,-0.20988934033638
-0.39850320711227,0.873621116826728,-0.020655519184696,-2.07172789588256,-0.188650253054566,-0.209630946968757
-0.38871615075094,0.875762094763537,-0.0295981291703089,-2.07778226706273,-0.169762256744775,-0.209058476571835
-0.378612317089087,0.877120522709638,-0.03708221112319,-2.07782038519786,-0.152661200910806,-0.208138104008199
-0.368320891509349,0.877675728005552,-0.0431798697467067,-2.07241023474708,-0.137584359539592,-0.206843920410551
-0.357971124184525,0.877430869610265,-0.047997110520497,-2.06218075358056,-0.124713643056989,-0.205159064516083
-0.347689582549191,0.876409847789818,-0.0516683889302772,-2.04780914018917,-0.114173865274471,-0.203076796407459
-0.337597266314796,0.87465376572425,-0.0543507849240575,-2.03000734471284,-0.106032671876884,-0.200601433501511
-0.327806683610829,0.87221718417952,-0.0562179686563498,-2.00950806226216,-0.100302130900457,-0.197749068672656
-0.318418997977097,0.869164401621556,-0.0574541181836371,-1.98705055849503,-0.0969419191808457,-0.194547995116914
-0.309521363190568,0.865565968528939,-0.0582479414673546,-1.9633666584941,-0.095863971891882,-0.191038771628654
-0.301184565700682,0.861495608887372,-0.0587869442757646,-1.93916722061407,-0.096938399186971,-0.18727387485303
-0.293461092200535,0.857027677433473,-0.0592520725167515,-1.91512939741709,-0.10000041910726,-0.183316901135187
-0.286383732495193,0.852235232142539,-0.0598128420053768,-1.89188495685584,-0.104858013397646,-0.179241299178996
-0.279964815415051,0.84718875166186,-0.0606230503916259,-1.87000989985074,-0.111299985516091,-0.17512863535775
-0.27419615794052,0.841955480517655,-0.0618171448666254,-1.85001556711751,-0.119104089449696,-0.17106641575725
-0.269049784915799,0.836599343906091,-0.0635072958213714,-1.83234138042394,-0.128044904533417,-0.167145512322876
-0.264479448857481,0.831181340834043,-0.0657812021668685,-1.81734931324048,-0.137901155075109,-0.163457264029649
-0.260422946985526,0.82576030081932,-0.0687006296585399,-1.80532013484989,-0.148462212878689,-0.160090346787263
-0.256805197240806,0.820393875871425,-0.0723006607189715,-1.79645142232078,-0.159533572994136,-0.157127526679155
-0.253541998339329,0.815139635821617,-0.0765896145171276,-1.79085728821063,-0.17094115427876,-0.154642428861801
-0.250544362235072,0.810056140567139,-0.0815495805463115,-1.78856973001676,-0.182534342209632,-0.152696467654064
-0.247723272313284,0.805203876087793,-0.0871374987573803,-1.7895414713019,-0.194187757610303,-0.151336090583383
-0.244994688995746,0.800645960452564,-0.0932867151758826,-1.79365013470148,-0.20580179777675,-0.150590489022109
-0.242284598126385,0.796448549699759,-0.0999089435722952,-1.80070356403459,-0.217302052591571,-0.150469919371057
-0.239533878394579,0.792680899545028,-0.106896570455305,-1.81044609669466,-0.228637744859667,-0.150964760780522
-0.236702753420958,0.789415065667197,-0.114125251181422,-1.82256557837796,-0.239779379492365,-0.15204540794585
-0.233774593014229,0.78672525154467,-0.121456757359222,-1.83670090979581,-0.250715809575164,-0.153663061040912
-0.230758837532249,0.784686837281476,-0.128742047876021,-1.85244991898478,-0.261450938867035,-0.155751430573366
-0.227692839806475,0.783375144622483,-0.135824545537026,-1.8693773627848,-0.272000280586299,-0.158229324846082
-0.224642450856103,0.782864011669614,-0.142543606770361,-1.88702287642763,-0.282387582727992,-0.161004034463532
-0.221701218198421,0.783224264972571,-0.148738171908029,-1.9049087101446,-0.292641712457679,-0.163975375139146
-0.218988118183759,0.784522186119041,-0.154250577576792,-1.92254711521521,-0.302793968408083,-0.167040200491489
-0.216643805325177,0.78681807408597,-0.158930500984494,-1.93944726773047,-0.312875961909676,-0.170097154231127
-0.21482543048691,0.790165002748211,-0.162638989189136,-1.95512164521341,-0.32291817787175,-0.173051399655539
-0.21370015370243,0.794607864559383,-0.165252506348432,-1.96909179773,-0.332949294282791,-0.175819046769837
-0.213437553171675,0.800182776073476,-0.166666910496987,-1.9808934798581,-0.342996306690129,-0.178330996002075
-0.214201206012997,0.806916898523198,-0.166801251007396,-1.99008113164177,-0.353085470647748,-0.180535933780391
-0.216139784223498,0.814828697578136,-0.165601261082314,-1.99623171449177,-0.363244040777336,-0.182402249419712
-0.219378066015967,0.823928631855791,-0.163042408655411,-1.99894792130755,-0.373502749493524,-0.183918693792297
-0.224008303280503,0.834220221698286,-0.159132365770461,-1.99786078870764,-0.383898931448283,-0.185093665818918
-0.230082406087254,0.845701410725347,-0.15391276171267,-1.99263174345449,-0.3944801613669,-0.185953089432056
-0.23760540140802,0.858366095990405,-0.147460099151983,-1.98295411570506,-0.405308233459205,-0.186536926864998
-0.24653059339797,0.872205671816628,-0.139885735084744,-1.96855414977986,-0.416463270702431,-0.186894458740989
-0.256756796050322,0.887210411287605,-0.13133485841535,-1.94919154016148,-0.428047713395777,-0.187078541949669
-0.268127926952321,0.90337050144572,-0.121984432131553,-1.92465951791915,-0.44018990072486,-0.187139127237241
-0.280435146320603,0.920676556252012,-0.112040108312105,-1.89478451199352,-0.453046929845034,-0.187116374830368
-0.293421603378924,0.93911945701432,-0.10173216623739,-1.85942541154856,-0.466806458253206,-0.187033744213661
-0.306789719175822,0.95868941330889,-0.091310564732017,-1.81847246009739,-0.481687111332543,-0.186891450641093
-0.320210799346768,0.979374196353956,-0.0810392367794669,-1.77184581902164,-0.497937171864882,-0.186660674933668
-0.333336641125087,1.00115656737877,-0.0711897851471656,-1.71949384676385,-0.515831264897114,-0.186278885179304
-0.345812684790659,1.02401099992563,-0.0620347607521713,-1.66139114944222,-0.535664811197765,-0.185646581361799
-0.357292168261328,1.04789987035286,-0.0538407202109561,-1.59753646779541,-0.557746105796547,-0.184625710378097
-0.367450680280602,1.0727693578191,-0.0468612653276688,-1.52795047306237,-0.582385983310935,-0.183039924045243
-0.37600047588686,1.09854534671818,-0.0413302654780016,-1.45267354970346,-0.609885155679669,-0.180676771754394
-0.382703918449957,1.12512965500092,-0.0374554545422542,-1.37176364526427,-0.64051944538719,-0.177291837559252
-0.387385443886777,1.1523969170179,-0.0354125779978347,-1.28529426716088,-0.674523281437165,-0.172614753273041
-0.389941500903753,1.18019242794216,-0.0353402439427083,-1.19335270318657,-0.712071968172204,-0.166356948132408
-0.390348000985305,1.20833120948575,-0.0373356049595174,-1.0960385379485,-0.753263369898958,-0.158220933958976
-0.388664907708779,1.23659848697154,-0.0414509665186,-0.993462532318759,-0.798099768488494,-0.147910873238726
-0.385037701384868,1.26475168159158,-0.0476913830967965,-0.885745928413725,-0.846470738507987,-0.135144135523127
-0.379695567175308,1.2925239261398,-0.0560132666460167,-0.77302023938439,-0.898137937778658,-0.119663513373939
-0.372946269131813,1.31962901568773,-0.0663239951379966,-0.655427581670031,-0.952722724560748,-0.101249740502915
-0.365167786396602,1.34576761470854,-0.0784824741286062,-0.533121606845668,-1.0096974813206,-0.079733929578796
-0.356796898919474,1.37063446659945,-0.0923005746700654,-0.406269089312533,-1.06838144668459,-0.0550095237486534
-0.348315016629323,1.39392629659545,-0.107545349835785,-0.275052222245725,-1.12794173171214,-0.0270433337210347
-0.340231646840274,1.41535006869292,-0.12394192318694,-0.139671663942648,-1.18740002665433,0.00411478770310063
-0.333065989132312,1.43463125259334,-0.141176948688828,-0.000350356197353372,-1.24564529486734,0.0383240966949438
-0.327327234040119,1.45152177622577,-0.158902564481959,0.142661897900756,-1.30145250857551,0.0753474034321266
-0.323494220059679,1.46580737881535,-0.176740802056113,0.289083159642734,-1.35350721580045,0.114848269159931
-0.321995170711539,1.4773141320072,-0.194288464633771,0.438593513554126,-1.40043544987347,0.156391380435716
-0.323188286272189,1.48591395409265,-0.211122547798838,0.590828870270644,-1.44083821505917,0.199446463289895
-0.327343998627779,1.49152899650996,-0.226806332535693,0.745374714643606,-1.47332951802546,0.243396002277058
-0.334629706805436,1.49413482509584,-0.240896324555525,0.901760191872754,-1.49657668048119,0.287546892858679
-0.345097788732327,1.49376234576594,-0.252950231670197,1.0594530067955,-1.50934147889081,0.331145980434841
-0.358677625285091,1.49049843337972,-0.262536151607273,1.21785567242524,-1.51052052757844,0.373399230462068
-0.375172269629816,1.48448521569494,-0.269243077480756,1.3763036710766,-1.49918326451416,0.413494041568723
-0.394260243716972,1.47591794787756,-0.272692713717466,1.53406607410192,-1.47460592409382,0.450623972789877
-0.415502742650589,1.46504139692649,-0.272552435615472,1.69034909692113,-1.43629999324574,0.484014926888362
-0.438356278827427,1.45214465146271,-0.268549032764369,1.84430294225033,-1.3840338457169,0.512951637068031
-0.462190509298637,1.43755429223029,-0.260482669887111,1.99503211001413,-1.31784652774359,0.53680316770851
-0.486310675766955,1.4216259115786,-0.248240303904084,2.14160913774683,-1.23805301348435,0.555046082297425
-0.509983767504922,1.40473406002165,-0.2318076417937,2.28309149671579,-1.14524064161955,0.567283969427786
-0.532467219518599,1.38726082120459,-0.211278638154646,2.41854112735179,-1.04025686165501,0.573262158416658
-0.553038711265223,1.36958336176816,-0.186861537065039,2.54704587574145,-0.924188832965861,0.572876697582739
-0.571025465505263,1.35206095102,-0.15888057319072,2.6677419130712,-0.798335803971136,0.566176997385324
-0.585831389097002,1.33502207412656,-0.127772662734381,2.77983610054693,-0.664175527188275,0.553361933928555
-0.596960466197035,1.31875234860964,-0.0940787220025072,2.88262721591493,-0.523326216308567,0.534769633636029
-0.604035015765223,1.30348397814922,-0.0584296233420644,2.9755249890517,-0.377505707683661,0.510861579613632
-0.606807751286646,1.28938742851523,-0.0215271988966811,3.05806599977195,-0.228489541841154,0.482202055466592
-0.605167007902475,1.27656588637866,0.0158789088006885,3.12992566022422,-0.0780696301894822,0.449434237581158
-0.599134993827768,1.26505287295893,0.0530174137959512,3.19092572068043,0.071984974362543,0.413254434251616
-0.588859432446833,1.25481315165674,0.089123184558339,3.24103698185587,0.219963911264556,0.374386032728145
-0.574599437875911,1.24574682015719,0.123465144101726,3.28037714946018,0.364246945576647,0.3335546495658
-0.556706861779707,1.2376962438957,0.155372722021126,3.30920400978284,0.503330316355381,0.291465795319453
-0.535604623546282,1.23045529735465,0.184259404549494,3.3279043245602,0.635847644695101,0.248786083558444
-0.511763664461401,1.22378025329976,0.209642130678309,3.33697902912301,0.760585357670166,0.206128667605273
-0.485680141900104,1.21740160816404,0.231155568191814,3.33702546373436,0.876492857725777,0.164043212966476
-0.45785431230092,1.21103615294867,0.248560646668669,3.3287174710629,0.98268788603352,0.123010346665161
-0.428772268531552,1.20439868135622,0.26174709654262,3.31278425185886,1.07845768348861,0.0834402006250759
-0.398891336857999,1.19721285080105,0.270730115914799,3.28998888615912,1.16325664159927,0.0456744116429534
-0.368629545542855,1.18922085427219,0.275641634400491,3.26110739934806,1.23670116092987,0.00999077218876445
-0.338359195553252,1.18019169933048,0.276716943772739,3.22690918238266,1.29856240549223,-0.0233903498352572
-0.308404232111882,1.16992800686393,0.274277701269191,3.18813946588689,1.34875756960153,-0.0542986928713624
-0.279040861614723,1.15827132581109,0.268712470690793,3.1455044030393,1.38734017317047,-0.0826066701461085
-0.25050069666184,1.14510600805823,0.260456041797082,3.09965914320784,1.41448978642694,-0.108222470039278
-0.222975644157435,1.13036170432742,0.24996875836914,3.05119908688666,1.43050146878681,-0.131084161562194
-0.196623767855164,1.11401453628503,0.237716993439578,3.00065431482701,1.43577510018228,-0.151155095682551
-0.171575438854854,1.09608698385018,0.224155746520809,2.9484869940518,1.43080469490639,-0.168420719259945
-0.147939212929689,1.07664651073309,0.20971411731881,2.89509139475474,1.41616772326039,-0.182886766849158
-0.125807019329342,1.05580294428168,0.194784152683806,2.84079601784466,1.39251442710094,-0.194578674986022
-0.105258391688697,1.03370463327601,0.179713290280753,2.78586724340133,1.36055710103076,-0.20354197688131
-0.0863636034381451,1.01053343132622,0.164800355926773,2.73051387197012,1.32105931834641,-0.209843381576821
-0.0691856789252687,0.9864985925246,0.150294831972048,2.67489194519297,1.2748251051516,-0.213572216694767
-0.0537813341902183,0.961829715531134,0.136398917954869,2.61910929671378,1.22268810145884,-0.214841912800259
-0.0402009596332912,0.936768926077842,0.123271764012826,2.56322939127078,1.16550078836508,-0.213791224886496
-0.0284877946460808,0.911562539265962,0.111035177969856,2.5072741486081,1.10412389928991,-0.210584918121511
-0.0186764666769569,0.886452486004164,0.0997800891183245,2.45122560630658,1.03941616514161,-0.205413687450179
-0.010791078891991,0.861667818054893,0.0895730911225008,2.39502643791844,0.972224563420636,-0.19849313171884
-0.00484303481033308,0.837416620785173,0.0804624741911321,2.33857949633063,0.903375246339579,-0.190061661219632
-0.000828786701760862,0.813878660928893,0.0724832809301975,2.28174668502565,0.83366531127561,-0.180377281671984
0.00127231264677525,0.791199079010949,0.0656610671947776,2.22434756219299,0.763855548288603,-0.16971326608879
0.00149988855339909,0.769483404258294,0.0600142045500028,2.1661581477873,0.694664255828545,-0.158352796442204
-8.59926206312992e-05,0.748794126255039,0.0555547109486427,2.10691042822875,0.626762160606848,-0.146582726464216
-0.00340389523606073,0.729149005010334,0.0522877287096906,2.04629303734903,0.560768415873667,-0.134686681534568
-0.00835070670108795,0.710521242244939,0.050209874392259,1.98395353826044,0.497247590042791,-0.122937767333151
-0.0148019991006674,0.692841573591937,0.049306757012786,1.91950264446534,0.436707501296305,-0.111591201786264
-0.0226130708685902,0.676002275332478,0.0495499963029638,1.85252060706256,0.379597709906784,-0.100877211375053
-0.0316206439069932,0.659863011285819,0.0508940722560241,1.78256586692732,0.326308454117147,-0.090994540584747
-0.0416451621354112,0.64425837656286,0.0532733052473939,1.70918593531985,0.277169811585938,-0.0821049108723566
-0.0524936161150468,0.629006926549542,0.0565992100653275,1.63193033237521,0.232450888609051,-0.0743287331214654
-0.0639628061163217,0.613921413653796,0.060758396836344,1.5503652883573,0.192358883093957,-0.0677423266123621
-0.0758429519170406,0.598819893480973,0.0656111178975333,1.46408980412798,0.157037931553062,-0.0623768307365128
-0.087921559353159,0.583537308962801,0.0709904926639552,1.37275258004135,0.126567729768274,-0.0582189166182994
-0.0999874576894086,0.567937118467542,0.0767023914241732,1.27606925969988,0.100962003859493,-0.0552133186353279
-0.111834924377373,0.551922505047227,0.0825259301932836,1.17383939819075,0.0801669945727716,-0.0532671149488711
-0.123267811153851,0.53544669137442,0.0882145247829862,1.06596255347034,0.0640601935479115,-0.052255595946109
-0.134103575373291,0.518521890863145,0.0934974718815366,0.952452913102109,0.0524496274784055,-0.0520294741917646
-0.144177102777365,0.50122645142054,0.0980820630270985,0.833451904233241,0.045074017226861,-0.0524231131648633
-0.153344184859876,0.483709794339523,0.101656285155938,0.709238289519899,0.0416041391658463,-0.0532633886502427
-0.161484490591814,0.466194815771687,0.10389220828917,0.580235322284384,0.0416456832653571,-0.0543787499741251
-0.168503855386432,0.448977499685968,0.104450195912218,0.447014616941711,0.0447438379815817,-0.0556080219256076
-0.174335707739107,0.432423585836782,0.102984086732329,0.310296482070053,0.0503897403160394,-0.0568084854260287
-0.178941473485574,0.416962240211314,0.0991474808626424,0.170946559885442,0.0580288179780012,-0.0578627983744576
-0.182309844211024,0.403076784858005,0.0926012160018662,0.0299687139383596,0.0670709291795136,-0.0586843691027144
-0.18445487160398,0.391292654854957,0.0830220407814231,-0.11150579659851,0.0769020853867434,-0.0592208734411286
-0.185412949955257,0.382162858693728,0.0701123883528074,-0.252232725499713,0.0868974346927115,-0.0594557103926527
-0.185238865508509,0.376251321041038,0.0536110317173954,-0.390872614996264,0.0964350986018077,-0.0594073162974038
-0.184001210375389,0.374114580965682,0.0333042743134,-0.526011645580653,0.104910400881255,-0.0591263960979089
-0.18177756315908,0.376282402488049,0.0090372080493096,-0.656185200326992,0.11175000847488,-0.0586912735226376
-0.178649910157237,0.383237926089677,-0.0192755304888179,-0.779903726284709,0.116425522174276,-0.0582016985033426
-0.174700803875084,0.395398047524018,-0.0516401441232159,-0.895680426071451,0.118466105549422,-0.0577715677184574
-0.170010717980195,0.413094750542129,-0.0879758648395514,-1.00206026947297,0.117469817340691,-0.0575211007095382
-0.164656955440985,0.436558138533494,-0.128109592034989,-1.09764977516732,0.113113404633593,-0.0575690589597125
-0.158714304078141,0.465901901182326,-0.171773546252352,-1.18114697446702,0.105160409189578,-0.0580255910940192
-0.152257425380662,0.50111191014491,-0.218606376439918,-1.25137093116101,0.0934675243929315,-0.0589862308074785
-0.145364731142996,0.542038557205839,-0.268157980983372,-1.30729015483429,0.077989203850077,-0.0605274674691807
-0.138123277041684,0.588393325961608,-0.319898085180904,-1.3480492122873,0.0587805562064014,-0.0627041605200854
-0.130634013908341,0.639749924012271,-0.373228374148333,-1.37299281783737,0.0359985600399513,-0.0655488910087854
-0.123016615232039,0.695550102156402,-0.427497728425319,-1.38168667499617,0.00990159888732028,-0.0690731543167684
-0.115413065455891,0.755114061325004,-0.482019871137207,-1.37393435675932,-0.0191527435287449,-0.073270117200666
-0.107989259525881,0.817655113576208,-0.536092533399969,-1.34978955669601,-0.050711761545003,-0.0781185098441799
-0.100934028232718,0.882298040582485,-0.589017101489587,-1.30956312380275,-0.084233783717331,-0.0835871175179705
-0.0944552502808217,0.948100403274452,-0.640117644642046,-1.25382441345078,-0.119096660406826,-0.0896392897590131
-0.0887730124678933,1.01407591936848,-0.688758249613199,-1.18339664361019,-0.154608846168992,-0.0962369039063688
-0.084110098045736,1.07921895560101,-0.734357711685066,-1.09934613448288,-0.190023297761278,-0.103343302547803
-0.0806803830966154,1.14252918477981,-0.776400844659854,-1.0029655214417,-0.224554306737976,-0.110924861167577
-0.0786759684786688,1.20303553062619,-0.814445956314004,-0.895751253674023,-0.257397224908548,-0.118951016645766
-0.0782540447165607,1.25981865270925,-0.848128363070557,-0.779375910600173,-0.287750829695777,-0.127392778495051
-0.0795245631616001,1.31203138901395,-0.877160154417315,-0.655656071227051,-0.3148418311057,-0.136219930475053
-0.0825397644046461,1.3589167503007,-0.901326727881399,-0.526516645464058,-0.337950766222081,-0.145397289440402
-0.0872865011261741,1.39982322398729,-0.920480864720021,-0.393952710819204,-0.356438288786253,-0.154880503848988
-0.0936821033699683,1.43421727565727,-0.934535276767626,-0.259989985894332,-0.369770668849508,-0.164611935110011
-0.101574290174891,1.46169302111562,-0.943454608862286,-0.126645110476358,-0.377543195757521,-0.174517166635614
-0.110745353621392,1.48197907855235,-0.947247824908987,0.00411310902038882,-0.37950014584427,-0.184502630646182
-0.120920549417055,1.49494260594172,-0.945961748998009,0.130400387466297,-0.375550045065533,-0.194454739884565
-0.13178033943323,1.50059049852068,-0.939676298931751,0.250450579803384,-0.365775127872882,-0.204240773063151
-0.142975861629916,1.49906768496495,-0.928501670095926,0.362645362001782,-0.350434158556718,-0.21371160410884
-0.154146766083442,1.49065243942038,-0.912577439662,0.465539267171212,-0.329958122637665,-0.222706201613047
-0.164940366578692,1.47574863719729,-0.892073300770731,0.557879552182496,-0.30493868896586,-0.23105767081705
-0.175030929969653,1.45487493496427,-0.867190934333944,0.638620565844154,-0.276109758345685,-0.238600478261411
-0.184137873517726,1.42865095356121,-0.838166403170019,0.706932491025079,-0.244322819735097,-0.245178398307236
-0.19204167382488,1.3977806765147,-0.805272417443586,0.762204532032443,-0.210517198969748,-0.250652657309584
-0.198596414144157,1.3630334362229,-0.768819867340469,0.804042806728968,-0.17568657986002,-0.254909728291848
-0.203738106266068,1.32522302415108,-0.729158132989471,0.832263372155108,-0.140843382162883,-0.257868246486799
-0.207488206498091,1.28518561086006,-0.686673840190841,0.846880955302173,-0.106982682296987,-0.259484571244688
-0.209952081609614,1.24375727690709,-0.641787908323262,0.84809407084944,-0.0750473565961439,-0.259756607321366
-0.211312541912821,1.20175202136135,-0.594950909758691,0.836267280627126,-0.0458960179797261,-0.258725611238046
-0.211818912385143,1.15994112155351,-0.546636909258888,0.81191138319219,-0.0202751176422563,-0.256475837598703
-0.211772426220493,1.11903466356018,-0.497336064553394,0.775662316915456,0.0012036874629265,-0.253132016522666
-0.211508969237296,1.07966595259252,-0.447546339978497,0.728259519936392,0.018080119901838,-0.248854787143794
-0.211380356834794,1.04237935603739,-0.397764714833656,0.67052442129556,0.0300553813384067,-0.243834334455929
-0.211735376562884,1.00762194350434,-0.348478262776367,0.603339647302789,0.0369956702669204,-0.238282579818404
-0.212901778790507,0.975739083816503,-0.300155446929242,0.527629424351604,0.0389293416525692,-0.232424353030032
-0.215170255967681,0.946973954270358,-0.253237927021925,0.444341552318105,0.0360382121018983,-0.226488021965857
-0.218781236923588,0.921470726731125,-0.208133118730174,0.354431218590624,0.0286437414654144,-0.220696072566845
-0.223915061798555,0.899281029482572,-0.16520768844259,0.258846827046408,0.0171889892309131,-0.215256117987066
-0.230685823145064,0.880373151218906,-0.124782113695016,0.158517932199213,0.00221734940908223,-0.210352773527634
-0.239138886374942,0.864643358928493,-0.0871263929212433,0.0543452974779183,-0.0156508870926473,-0.206140768002537
-0.249251861202676,0.851928646705251,-0.0524569486200874,-0.0528069624426868,-0.0357431027358203,-0.202739578145523
-0.260938602289714,0.842020217169725,-0.0209347352325276,-0.162117243996233,-0.0573590716932283,-0.200229777201025
-0.274055682178944,0.834677018732972,0.00733546404716793,-0.272810451162558,-0.0797949334933884,-0.198651188848697
-0.288410705746348,0.829638716504273,0.032304589723298,-0.384160290220151,-0.102365647446382,-0.198002839694416
-0.303771819038,0.826637557179715,0.0539777646362137,-0.495490057440672,-0.124425288639563,-0.198244613548793
-0.319877797905805,0.82540869276217,0.0724117315933792,-0.606172140679173,-0.145384690329883,-0.199300433302955
-0.336448171964306,0.825698647684933,0.0877113563478934,-0.715626477517647,-0.164726083048126,-0.201062734774408
-0.35319293446266,0.827271741598185,0.10002529389746,-0.823318228547984,-0.182014521321609,-0.203397953407884
-0.369821496130796,0.829914408254643,0.109540925922035,-0.928754933073057,-0.196906019239398,-0.206152719781616
-0.386050649510809,0.833437472465611,0.116478685381632,-1.03148341447873,-0.209152431951531,-0.209160452842811
-0.401611410447389,0.837676555552027,0.1210858910305,-1.13108669253148,-0.218603218804524,-0.212248048986989
-0.416254688725852,0.842490869587952,0.12363022004108,-1.22718113916326,-0.225204303706674,-0.215242388059456
-0.429755806694367,0.847760727860477,0.124392951376005,-1.31941408295214,-0.228994309227859,-0.217976411188946
-0.441917932213818,0.853384140680256,0.123662116137016,-1.40746202641713,-0.23009848360453,-0.220294566973592
-0.45257452177097,0.859272881011847,0.121725693910671,-1.49102959124413,-0.228720665752067,-0.222057468886074
-0.461590883800316,0.865348394153658,0.118864996136614,-1.56984925223815,-0.225133644668256,-0.22314565502159
-0.468864974709744,0.871537892269817,0.115348378374114,-1.64368186430174,-0.219668268714701,-0.223462388979012
-0.474327534501665,0.877770921805536,0.111425422471497,-1.71231793147649,-0.212701649837937,-0.222935485641823
-0.477941658635289,0.88397662468729,0.107321726344476,-1.7755795163993,-0.204644790493653,-0.221518186233869
-0.479701890595311,0.890081838436846,0.103234432342772,-1.83332264541099,-0.195929939372877,-0.219189142009349
-0.479632907301473,0.896010101968457,0.0993286141739295,-1.88544003137766,-0.186997958249283,-0.215951594441756
-0.477787857962912,0.901681558809825,0.0957346263638057,-1.93186391459007,-0.178285958318695,-0.211831861313424
-0.474246406538003,0.907013683115402,0.092546498850005,-1.97256881248946,-0.170215441904927,-0.20687725250736
-0.469112518652057,0.911922700207158,0.0898214325883416,-2.0075739711192,-0.16318116549209,-0.201153546711359
-0.462512025646574,0.916325534963572,0.0875804205411014,-2.03694532410788,-0.157540923142016,-0.194742161116421
-0.454589991588668,0.920142099188612,0.0858099829708558,-2.06079678716199,-0.153606435024479,-0.187737141278669
-0.445507903672057,0.923297722896167,0.0844649680463788,-2.07929074575022,-0.15163551277882,-0.180242088600832
-0.435440702385855,0.925725542899678,0.0834723302451996,-2.09263762899687,-0.151825659940995,-0.172367129492428
-0.424573665226884,0.92736868301947,0.0827357618685747,-2.10109450181971,-0.154309249661288,-0.164226014353538
-0.413099156596693,0.928182090882959,0.0821410193008344,-2.1049626480718,-0.159150401444064,-0.155933417216255
-0.401213257232677,0.928133933264576,0.0815617573792492,-2.10458415797504,-0.166343652021347,-0.147602489187148
-0.389112289628506,0.927206491462369,0.080865663620498,-2.10033757170564,-0.17581448170147,-0.139342701595186
-0.376989261626712,0.925396536959976,0.0799206697859394,-2.09263266606996,-0.187421716429822,-0.131257998579263
-0.365030258838454,0.922715202746846,0.0786010117357862,-2.08190450150833,-0.20096177813964,-0.123445264167316
-0.353410827847981,0.919187395191471,0.0767929100300806,-2.0686068711695,-0.216174703400452,-0.115993095998708
-0.342292406221737,0.914850814172175,0.0743996540552325,-2.05320531181042,-0.232751795063133,-0.108980866988385
-0.33181887151377,0.909754664741688,0.0713458920181612,-2.03616984747022,-0.250344715940381,-0.102478047711151
-0.322113298635182,0.903958151947151,0.0675809577792771,-2.01796764133422,-0.268575780011768,-0.0965437563784174
-0.313275031357767,0.897528851996354,0.0630811025215996,-1.99905572937128,-0.287049147821916,-0.0912265001658399
-0.305377187322407,0.890541048376849,0.0578505435229862,-1.97987400182172,-0.305362591492841,-0.0865640713100141
-0.298464724620344,0.883074111897787,0.051921292111558,-1.96083858616268,-0.323119464019376,-0.0825835636026301
-0.292553199302737,0.875210990588659,0.0453517764018576,-1.94233576861101,-0.339940489904437,-0.0793014793074948
-0.287628335036922,0.867036860633432,0.03822432947169,-1.9247165715156,-0.355474991685956,-0.0767239026787259
-0.283646507036079,0.858637974738695,0.0306416675052024,-1.90829208225266,-0.369411180504546,-0.0748467236996715
-0.28053621208051,0.850100730635378,0.0227225323545439,-1.89332960657822,-0.381485168538494,-0.0736559038565362
-0.278200556350728,0.841510970322717,0.0145967158138016,-1.88004969679648,-0.391488405862592,-0.0731277840909994
-0.276520745421653,0.832953510233365,0.00639971581325838,-1.86862408329762,-0.399273302028909,-0.0732294428797216
-0.275360509468007,0.824511893362531,-0.00173270480203088,-1.85917451747948,-0.404756860543182,-0.073919119015455
-0.274571344891532,0.816268346397999,-0.00966978060945266,-1.85177251497089,-0.4079222290322,-0.0751467185275554
-0.27399840462361,0.808303917617536,-0.017290561102803,-1.84643997036125,-0.408818145778209,-0.0768544277923521
-0.27348682660447,0.800698764488812,-0.0244880439394967,-1.84315059809556,-0.40755634106128,-0.0789774549039791
-0.272888256594814,0.793532553408838,-0.031172426147758,-1.84183213861348,-0.404307026084026,-0.0814449186710645
-0.272067300325856,0.786884927716896,-0.0372733296609299,-1.84236925416178,-0.399292669853327,-0.0841808992930718
-0.270907632452108,0.780835994313566,-0.0427409209815393,-1.8446070251879,-0.392780322176926,-0.0871056572052099
-0.2693174959979,0.775466774368506,-0.0475459132367527,-1.84835494616759,-0.385072786562215,-0.0901370172550212
-0.267234345050656,0.770859560275693,-0.0516785077590592,-1.85339130948685,-0.37649897914113,-0.0931919048129171
-0.264628413813445,0.767098120080532,-0.055146396737224,-1.85946785801136,-0.3674038286537,-0.0961880091561906
-0.261505035076035,0.764267692849911,-0.0579720036825985,-1.86631458184339,-0.358138078335004,-0.099045538072169
-0.257905578479839,0.762454724563245,-0.0601891805030129,-1.87364453326012,-0.349048343744855,-0.101689016723379
-0.253906931418235,0.76174630452557,-0.0618396060302447,-1.88115853669397,-0.34046776187544,-0.104049074037443
-0.249619500569267,0.762229277022143,-0.0629691397121076,-1.88854967836052,-0.332707537445111,-0.106064151809318
-0.245183767821878,0.763989021384375,-0.0636243759908067,-1.89550747292335,-0.326049653713696,-0.107682065840641
-0.240765489502788,0.767107914828054,-0.0638496209236822,-1.90172162217958,-0.320740969181447,-0.10886134523388
-0.236549681213974,0.771663515026376,-0.0636844752874326,-1.9068853025698,-0.31698886965378,-0.109572275821624
-0.232733580934578,0.777726521716658,-0.0631621609198782,-1.91069794335339,-0.314958588598394,-0.109797577036767
-0.229518828399111,0.785358596970024,-0.0623086735051479,-1.91286748397891,-0.314772249015204,-0.109532648642769
-0.227103136939591,0.794610140367332,-0.0611427897199656,-1.91311212537976,-0.316509619395768,-0.108785334819844
-0.225671763437769,0.805518126476287,-0.0596769034028581,-1.91116161324859,-0.320210517351353,-0.107575168103811
-0.225389102312944,0.818104116147494,-0.0579186172641344,-1.9067581096794,-0.325878739236185,-0.105932074319517
-0.226390740201959,0.832372549106259,-0.0558729755487508,-1.89965672149625,-0.333487343640708,-0.103894541407281
-0.228776308525977,0.848309412729121,-0.053545190184305,-1.88962575856772,-0.342985071049375,-0.101507279129902
-0.232603460193136,0.865881361225799,-0.050943688765094,-1.87644679377756,-0.354303640686582,-0.0988184220607718
-0.23788327239843,0.885035332097897,-0.0480832971555811,-1.85991458915199,-0.367365628054171,-0.0958763537896654
-0.244577337985981,0.905698675032135,-0.0449883623992578,-1.83983694142347,-0.382092593078311,-0.0927262545868989
-0.252596752023854,0.927779775076515,-0.041695622491044,-1.81603448672064,-0.398413100458691,-0.0894064963679595
-0.261803128752133,0.951169120084465,-0.0382566376313688,-1.78834048985634,-0.416270253131165,-0.0859450261930034
-0.272011699667428,0.975740734873765,-0.0347396120152548,-1.75660063063659,-0.435628349546816,-0.0823558913216259
-0.282996450840586,1.00135388373112,-0.0312304555210103,-1.72067278948044,-0.456478278373384,-0.0786360639277157
-0.294497162050349,1.02785493091262,-0.0278329608350494,-1.68042682883739,-0.478841282475684,-0.0747627213501957
-0.306228117828576,1.05507924696537,-0.0246680039772478,-1.63574436614798,-0.502770759467913,-0.0706911281779888
-0.317888176776093,1.08285305750724,-0.0218717149965359,-1.58651853832327,-0.528351820099899,-0.0663532500788293
-0.32917181583835,1.11099515001721,-0.0195926101497318,-1.53265376601915,-0.555698398748077,-0.061657207115555
-0.339780715282985,1.13931838141226,-0.0179877259110777,-1.47406553690148,-0.584947801601811,-0.0564876477595169
-0.349435420854739,1.16763096215967,-0.0172178466980094,-1.41068023886766,-0.616252685592102,-0.0507070955464152
-0.357886613089841,1.1957375281447,-0.0174419697792758,-1.34243508497231,-0.649770581075467,-0.0441582900104526
-0.364925529075981,1.22344004598181,-0.0188111994316532,-1.26927817989239,-0.685651198880201,-0.0366675137047158
-0.370393116358009,1.25053862756681,-0.0214623044387721,-1.19116878180997,-0.72402189174351,-0.0280488689295428
-0.374187548875951,1.27683235213876,-0.0255112049262357,-1.10807781283659,-0.764971764955479,-0.0181094418612099
-0.376269797009766,1.30212020623827,-0.031046673053838,-1.01998866558043,-0.80853504427948,-0.00665526809059254
-0.376667014300801,1.3262022521389,-0.0381245346928942,-0.926898343959303,-0.854674403910051,0.00650200844605518
-0.375473578661563,1.34888112342999,-0.0467626444809367,-0.828818964211116,-0.903265026760645,0.0215379125600687
-0.372849702441948,1.36996392368051,-0.0569368744580036,-0.725779628670359,-0.954080208326889,0.0386075023208778
-0.369017601461007,1.38926457268316,-0.0685783084427994,-0.617828671465972,-1.00677931990048,0.0578374960447224
-0.364255287572111,1.40660660738827,-0.0815717737930323,-0.505036262652097,-1.0608989147,0.0793183628572553
-0.358888122739747,1.42182640449411,-0.0957557742398285,-0.387497345772306,-1.11584769040002,0.103096606285175
-0.353278345342541,1.43477675214856,-0.110923818100821,-0.265334873337431,-1.17090591358334,0.129167500020315
-0.34781285082619,1.44533066274531,-0.126827071692506,-0.138703294333857,-1.2252297674445,0.157468563934385
-0.34288957700758,1.45338529042748,-0.143178214324626,-0.0077922361308959,-1.27786090738338,0.187874093458651
-0.338902907262663,1.45886579770833,-0.15965633404651,0.127169691924733,-1.32774130587446,0.220191072521332
-0.336228560369095,1.46172900639218,-0.175912685626858,0.265911066094213,-1.37373324583193,0.254156804676065
-0.335208481733739,1.46196666819997,-0.191577135039862,0.408113906003257,-1.41464408946551,0.28943858399008
-0.336136284447854,1.45960819870037,-0.206265136195795,0.553410173301614,-1.44925521720076,0.325635692199251
-0.339243806673449,1.45472273220396,-0.219585121076504,0.701378697534976,-1.4763543094481,0.362283948103573
-0.344689350788498,1.44742037261561,-0.231146226887154,0.851542751702692,-1.49476994447249,0.398862947398118
-0.352548146720569,1.43785253327272,-0.240566324751449,1.00336853210002,-1.50340732020208,0.434806016677858
-0.362805534948228,1.42621127564906,-0.247480344502462,1.1562648194565,-1.50128378776549,0.469512767635094
-0.375353292332532,1.41272757197365,-0.251548900498052,1.30958410500943,-1.48756281966436,0.502363982999609
-0.389989425715503,1.39766843138793,-0.25246720729238,1.46262545041728,-1.46158503333118,0.532738404106223
-0.406421634603285,1.38133284595069,-0.249974227868368,1.61463931021179,-1.42289495598807,0.560030833227063
-0.424274497306543,1.36404653544732,-0.243861921956436,1.76483447799983,-1.37126235008852,0.5836708257696
-0.44310026837897,1.34615550282981,-0.233984363923805,1.91238722396909,-1.30669711677254,0.603141142323864
-0.462392995185774,1.32801845863322,-0.220266390052553,2.0564525757571,-1.2294570497884,0.617995071449331
-0.481605476650655,1.30999823406795,-0.202711328862316,2.19617756483744,-1.14004801206967,0.627871731451832
-0.500168408629422,1.29245237696868,-0.181407282948051,2.33071612618865,-1.03921643585452,0.632508519494379
-0.517510901254274,1.27572320713033,-0.15653138379814,2.45924521155904,-0.927934386562284,0.631750000179531
-0.533081428493263,1.26012768927514,-0.128351446838771,2.58098156772654,-0.807377760930253,0.625552708205196
-0.54636819346187,1.24594755204631,-0.09722452169951,2.69519855114076,-0.678898491514841,0.613985569767421
-0.556917877467748,1.23342012809318,-0.063591964287017,2.8012423070222,-0.543991884384146,0.597225908624013
-0.564351795181753,1.22273040271761,-0.0279708465226206,2.89854663871929,-0.404260409318658,0.575551274704889
-0.568378605693927,1.21400472908016,0.00905824764975408,2.98664593226112,-0.261375380834469,0.549327593324876
-0.568802925300071,1.20730659407377,0.0468667356039246,3.06518557819835,-0.117038007701202,0.518994359082999
-0.565529440761308,1.20263470416831,0.0847962999631311,3.13392944146811,0.0270587521146869,0.48504777062219
-0.558562412344419,1.19992351456528,0.122179116623365,3.19276406153021,0.169266209712371,0.448022805474092
-0.5480007594676,1.19904616286908,0.158359082268792,3.24169940990063,0.308012695283356,0.408475259520935
-0.534029210810079,1.19981960817276,0.192712966198529,3.28086618121816,0.441832128075575,0.366964721891516
-0.516906248038507,1.20201163628883,0.224670379096839,3.31050973904224,0.569387756116685,0.32403932973805
-0.496949754391517,1.20534928751916,0.253731500779876,3.33098097226225,0.689490690059989,0.280222961673982
-0.474521379812421,1.20952820548544,0.279481635578349,3.34272443759322,0.801113123990233,0.236005302563639
-0.45001064598148,1.21422239813703,0.301601856960445,3.34626426482755,0.903396381315453,0.19183496809284
-0.423819740204994,1.21909394190835,0.319875246347229,3.34218838184003,0.995654132078628,0.148115638200588
-0.396349798680203,1.22380223762174,0.334188505498622,3.33113167363855,1.07737128937038,0.105204935327364
-0.367989277422011,1.2280125282054,0.344529006726352,3.31375872183541,1.14819920183843,0.0634156137664362
-0.33910477811756,1.23140349779443,0.350977620355073,3.29074677559595,1.20794781609989,0.023018511654078
-0.310034462396243,1.23367387423485,0.35369790586841,3.26276958055934,1.25657549097114,-0.0157533378729914
-0.281083975530473,1.23454804040796,0.352922455906255,3.23048263746654,1.29417711210868,-0.0527000368969744
-0.25252462818103,1.23378071672348,0.348937328002456,3.19451037794036,1.32097109053948,-0.0876501415911621
-0.224593464312565,1.23116080525083,0.342065579220224,3.15543563381483,1.33728574243482,-0.120456425261952
-0.197494779098059,1.22651448767527,0.332650929630947,3.1137916438456,1.34354545120222,-0.150992424978077
-0.171402639042724,1.21970765062759,0.32104252293198,3.07005669516468,1.34025691644025,-0.179149985198037
-0.146463988305422,1.21064768106993,0.307581632304089,3.02465134597297,1.32799570573569,-0.204837888851347
-0.122801987244969,1.19928463990868,0.292590986982628,2.9779380312297,1.3073932507014,-0.22798155662621
-0.100519307425555,1.18561179138812,0.27636718363789,2.93022272499901,1.27912437172852,-0.248523705520158
-0.079701188586918,1.16966544460975,0.259176412713319,2.88175823100679,1.24389537804815,-0.26642579122778
-0.0604181370285792,1.15152405478775,0.241253490538902,2.83274860410728,1.20243277020263,-0.281670015744044
-0.0427282047504897,1.13130653624646,0.222803959980238,2.78335417421866,1.15547256861178,-0.294261659393389
-0.0266788317220132,1.10916975514329,0.204008820380215,2.73369665215601,1.10375030109287,-0.304231491728245
-0.0123082606587608,1.08530519433118,0.185031283713193,2.68386384180397,1.04799169973201,-0.311638024275316
0.000353452208815103,1.05993481197556,0.166024836935058,2.63391356053179,0.988904178879308,-0.316569386092775
0.0112838012415709,1.03330614606753,0.147141825330894,2.58387647271934,0.927169186781297,-0.319144627450589
0.0204675395007331,1.00568674620225,0.128541759454244,2.53375766126036,0.863435539437266,-0.319514285609936
0.0278966984932475,0.977358040128773,0.110398586772516,2.48353688972993,0.798313853337393,-0.317860078601269
0.0335708833893852,0.94860876450542,0.09290625311713,2.43316763435179,0.732372191368887,-0.314393627743246
0.0374978004173434,0.919728106603195,0.076282001046594,2.38257508149548,0.666133021939656,-0.309354147401142
0.0396939632026314,0.8909987165279,0.0607670030843974,2.33165338593741,0.600071564924895,-0.303005081117815
0.0401855135563661,0.862689758443468,0.0466240977585017,2.28026256191466,0.53461556016718,-0.295629706432804
0.0390090816199095,0.83505017491655,0.034132575153306,2.228225429284,0.470146446797025,-0.287525775637332
0.0362126025333157,0.808302341298061,0.0235801361191586,2.1753250589814,0.407001887398917,-0.278999305073654
0.0318560034563112,0.782636287351712,0.0152523161078437,2.1213031553747,0.345479513613016,-0.270357669577411
0.0260116769704813,0.758204661175001,0.00941981221627306,2.06585977960736,0.285841713270314,-0.261902199190609
0.0187646650761962,0.735118605576614,0.00632427334942702,2.00865476062287,0.228321227978578,-0.253920510214899
0.0102124916944916,0.713444709026551,0.00616320308781811,1.94931106327903,0.173127288440282,-0.246678830107577
0.000464599962013448,0.693203181220237,0.00907467932690356,1.88742029054742,0.120451986402123,-0.240414594059125
-0.0103586279127679,0.674367386200741,0.0151226129621634,1.82255039432811,0.0704765698053647,-0.235329599118842
-0.0221272674557141,0.656864843182012,0.0242832513755896,1.75425556202697,0.0233773529943685,-0.231583998638547
-0.0347036412368387,0.640579776430026,0.0364335850992089,1.68208813868063,-0.0206690431114524,-0.229291405183291
-0.0479444536008466,0.625357260875779,0.0513422435688661,1.60561234161778,-0.0614813665936822,-0.228515343872599
-0.0617032014574029,0.611008969845468,0.0686633752996488,1.52441943043173,-0.0988705187735789,-0.229267260607933
-0.0758327700586465,0.597320485873167,0.0879339066621869,1.43814391280032,-0.132637578070486,-0.23150624124311
-0.0901881014566535,0.584060085568479,0.108574469003393,1.34648029919081,-0.16257312853987,-0.23514053908247
-0.104628802804761,0.570988855793868,0.129894182378941,1.2491998689032,-0.188457893986896,-0.240030940044928
-0.11902154276721,0.557871941933265,0.151099390029938,1.14616687787409,-0.210064621661615,-0.245995918748252
-0.13324206898406,0.54449067079134,0.171306353123564,1.03735362634629,-0.227161114659163,-0.252818456667563
-0.147176671010541,0.530655231886547,0.189557839862809,0.922853812584186,-0.239514282604024,-0.260254308316635
-0.160722915523207,0.516217542995657,0.204843474065381,0.802893627466298,-0.246895067425637,-0.268041417058803
-0.173789498718663,0.501083870507772,0.216123641038327,0.677840093576548,-0.249084104262662,-0.275910103734731
-0.186295099634322,0.485226724549471,0.222356676981103,0.548206220155934,-0.245877993731171,-0.283593584803181
-0.198166181265139,0.468695505707569,0.222528985976212,0.414652629863941,-0.237096085878946,-0.290838328711247
-0.209333775531862,0.451625348122001,0.215687630527363,0.277985411606365,-0.222587701515252,-0.297413736304887
-0.21972940175641,0.434243587249518,0.200974823954371,0.139150061575739,-0.202239735852124,-0.303120639024145
-0.229280400533082,0.41687328525025,0.177663614900092,-0.000778512823072352,-0.175984595285134,-0.307798151466652
-0.23790510517302,0.399933279248068,0.145193898440903,-0.140609839697367,-0.143808404639223,-0.311328494137884
-0.245508405993532,0.383934284511087,0.103207721007258,-0.279055387716569,-0.105759385488675,-0.313639516012963
-0.251978369691968,0.36947069220142,0.0515826773281475,-0.414749441563671,-0.0619562455155112,-0.314704789330088
-0.257184635887073,0.357207854482946,-0.00953795982355136,-0.546272977299574,-0.0125963372718493,-0.314541311477386
-0.260979305172439,0.3478648497728,-0.0797198662584365,-0.672180098337051,0.042036750952666,-0.313205018291892
-0.263200940880244,0.342192964191438,-0.158218623099933,-0.791026536121477,0.101566608616287,-0.31078447462156
-0.263682120262592,0.34095040219011,-0.243968597627626,-0.901399671722742,0.165518946371222,-0.307393245784342
-0.262260689813302,0.344874033423164,-0.335581279923562,-1.00194949061552,0.233318659023179,-0.303161552619987
-0.258794516328384,0.354649271252581,-0.431354445755599,-1.0914198381488,0.304289621082132,-0.298227860901201
-0.253179105859376,0.370879432453394,-0.529293244020218,-1.16867929407873,0.377657797829446,-0.292731045107192
-0.245367025419559,0.394056116511181,-0.627143919028215,-1.23275093025383,0.452558161776571,-0.286803694900467
-0.235387655714657,0.42453223632022,-0.722440377900022,-1.28284015899271,0.528045745208199,-0.280567004574587
-0.223365481375685,0.462499305600247,-0.812563216566805,-1.31835982785683,0.603110938411241,-0.274127512354831
-0.209534940559001,0.507970427885625,-0.894810151738579,-1.33895167996766,0.676698872590482,-0.267575754690571
-0.194249852212719,0.560770137389636,-0.966476109803182,-1.34450329058938,0.747732426668443,-0.260986691835385
-0.177985645039825,0.620531829193872,-1.02494054574937,-1.33515962348402,0.81513809502209,-0.25442156840906
-0.161333032470702,0.686703017142789,-1.06775896003766,-1.31132843551926,0.87787367963171,-0.247930718991873
-0.144982392313519,0.758558118017188,-1.0927551027153,-1.2736789017542,0.934956556596327,-0.241556733375926
-0.129698870826613,0.835217934050325,-1.09811004917738,-1.22313303615437,0.985491141400729,-0.235337372061554
-0.116289067678198,0.915674548700954,-1.08244423509741,-1.16084973856417,1.02869415962828,-0.229307674964568
-0.105560984550996,0.998820012970126,-1.04488866548862,-1.08820159321136,1.06391642836793,-0.223500830894917
-0.0982796453730403,1.08347701905476,-0.985141860088932,-1.00674485913653,1.09066006322668,-0.217947558882877
-0.0951213372608831,1.16842975413004,-0.903509639242695,-0.918183406829357,1.10859032809987,-0.212673973845646
-0.096629714167892,1.25245329769987,-0.800925549236264,-0.824327645935856,1.11754170973933,-0.207698142085113
-0.103177013074038,1.33434024857494,-0.678950520791139,-0.727049736240995,1.1175181890279,-0.203025748208697
-0.114933350405222,1.41292370125147,-0.539751192758811,-0.628236562424706,1.10868805526357,-0.198645467078738
-0.131846521075528,1.48709618322416,-0.386057162386229,-0.529742071808722,1.09137393078696,-0.194524739732591
-0.153633967998131,1.55582465609206,-0.221098200680447,-0.433340618391991,1.06603891029218,-0.190606675627283
-0.179787700252105,1.61816211724467,-0.04852316603271,-0.340682925732158,1.03326985216737,-0.18680873896949
-0.20959199876276,1.67325666705433,0.127697056256866,-0.253256179487788,0.993758881206578,-0.18302372817107
-0.242152846317612,1.7203590936583,0.303379773055927,-0.172349594667958,0.948284079788388,-0.179123338142529
-0.276437232726983,1.75883005515684,0.474250662721901,-0.0990265823661356,0.897690177681324,-0.174964327056395
-0.311319878143142,1.78814780718385,0.636070431780886,-0.0341043776101757,0.842869828249399,-0.170397020369219
-0.345634528401109,1.80791714959874,0.78476427077019,0.0218583026406535,0.784745815396522,-0.165275606533678
-0.378226821648541,1.81787988209206,0.91655031573499,0.0685653096030283,0.724254305693483,-0.159469442155178
-0.408005798055683,1.81792660882016,1.02806327762629,0.105978865662246,0.662329073982975,-0.152874417041019
-0.433991395812525,1.80810926738516,1.11646941992662,0.134307455719731,0.599886510573611,-0.145423352632834
-0.455355702097017,1.78865332975042,1.17956913620019,0.153986403823585,0.537811175758766,-0.137094432369702
-0.471456252213355,1.75996828069929,1.21588349558827,0.165651954077362,0.476941703347416,-0.127916790308817
-0.481860235131942,1.722654763391,1.22472127998339,0.170109851976337,0.418056958949811,-0.117972604173592
-0.486359014074104,1.67750671923795,1.20622323222431,0.168299554537147,0.361862511938667,-0.107395329863082
-0.48497286010963,1.62550695324375,1.16138048041163,0.161255290237903,0.308977657493157,-0.0963640472398525
-0.477946191936883,1.56781482182082,1.09202442177237,0.150065252395339,0.259923399840548,-0.0850942280369223
-0.465733899424929,1.50574514725567,1.00078577602797,0.135830253506735,0.215111953909523,-0.0738255518549768
-0.394731262045909,1.32241170733618,0.60344736784384,0.119623203361665,0.174838418624749,-0.0628076550639936
-0.330987005133775,1.17088568532291,0.256539344369203,0.111164269808962,0.155849224760591,-0.0574285708802392
